Folder: XAFSScanTool/docs/material/MonoScan-20220629T140013

Note: README.md
# xafs-scan

XAFS scan tool


Action points to be done: 
1. XDI file format to be added as standard generated file from the Beamline, reference: https://github.com/XraySpectroscopy/XAS-Data-Interchange/blob/master/specification/spec.md

File: MonoScan_MonoScan_Scan1_20220629T140013.xdi
# XDI/1.0 SED_HESEB/0.9
# Column.1: PGM energy (eV)
# Column.2: I0
# Experiment.Type: Local
# Base.file_name: MonoScan
# Element.edge: K
# Mono.name: Si 111
# Mono.d_spacing: 3.1356
# Mono.settling_time: 0.0
# Beamline.name: HESEB | Soft X-ray beamline (ID11)
# Beamline.collimation: slits
# Beamline.focusing: no
# Beamline.harmonic_rejection: mirror coating VCM: Si, VFM: Si
# Facility.name: SESAME Synchrotron-light
# Facility.energy: 2.50 GeV
# Facility.current: 3.38101
# Facility.xray_source: SESAME Bending Magnet
# Scan.start_time: 2022-06-29T14:00:13
# Scan.end_time: 2022-06-29T14:02:14
# Scan.edge_energy: 650
# Scan.number: 1/1 -- intervals: 1, samples: 1
# Element.symbol: Cu
# Sample.stoichiometry: NONE
# Sample.prep: CuO3
# ///
# Experiment comments and remarks: NONE
# User comments and remarks: NONE
#----
#(1)energy    (2)I0
2.804995e+02  7.366767e-08
2.810014e+02  7.530522e-08
2.814939e+02  7.719512e-08
2.819969e+02  7.942778e-08
2.824951e+02  8.197618e-08
2.830056e+02  8.482569e-08
2.834959e+02  8.776909e-08
2.839972e+02  9.090448e-08
2.844959e+02  9.407848e-08
2.850048e+02  9.742107e-08
2.854951e+02  1.007779e-07
2.859957e+02  1.042092e-07
2.865021e+02  1.076069e-07
2.869966e+02  1.109063e-07
2.874897e+02  1.140436e-07
2.879982e+02  1.171880e-07
2.884963e+02  1.202952e-07
2.889976e+02  1.234986e-07
2.894968e+02  1.269777e-07
2.899970e+02  1.308181e-07
2.904935e+02  1.349245e-07
2.909973e+02  1.398847e-07
2.914971e+02  1.454309e-07
2.920008e+02  1.518759e-07
2.924917e+02  1.593021e-07
2.930035e+02  1.677827e-07
2.934892e+02  1.772527e-07
2.939980e+02  1.876592e-07
2.945020e+02  1.986544e-07
2.949994e+02  2.104950e-07
2.955018e+02  2.229762e-07
2.960025e+02  2.361346e-07
2.965051e+02  2.492593e-07
2.969963e+02  2.624115e-07
2.975017e+02  2.749769e-07
2.979934e+02  2.868589e-07
2.984939e+02  2.986830e-07
2.989987e+02  3.108069e-07
2.994957e+02  3.231106e-07
3.000011e+02  3.339838e-07
3.004991e+02  3.406581e-07
3.009999e+02  3.392565e-07
3.014988e+02  3.266803e-07
3.019950e+02  3.012881e-07
3.024920e+02  2.644788e-07
3.029974e+02  2.208590e-07
3.034941e+02  1.772078e-07
3.039957e+02  1.387874e-07
3.045002e+02  1.087318e-07
3.049955e+02  8.762547e-08
3.054923e+02  7.328297e-08
3.059970e+02  6.283759e-08
3.064992e+02  5.380990e-08
3.069896e+02  4.523022e-08
3.074980e+02  3.709189e-08
3.080013e+02  3.049167e-08
3.084987e+02  2.586811e-08
3.089981e+02  2.286414e-08
3.094995e+02  2.085838e-08
3.100019e+02  2.085838e-08
3.104904e+02  1.921097e-08
3.109906e+02  1.746057e-08
3.115061e+02  1.626725e-08
3.119995e+02  1.572821e-08
3.124961e+02  1.577026e-08
3.129907e+02  1.617478e-08